{
  "resourceType": "Bundle",
  "id": "d4124650-215c-11ef-b51f-3b518f02a5f5-healthelink-20240327-testcase1-MRN-healthelinkCZ8BSG71LI",
  "type": "transaction",
  "meta": {
    "lastUpdated": "2023-04-02T08:41:20.000000+04:00"
  },
  "timestamp": "2024-06-03T03:53:25.045Z",
  "entry": [
    {
      "resource": {
        "resourceType": "Consent",
        "id": "consentForhealthelink-20240327-testcase1-MRN",
        "meta": {
          "lastUpdated": "2023-04-02T08:41:20.000000+04:00",
          "profile": [
            "http://shinny.org/StructureDefinition/shin-ny-consent"
          ]
        },
        "status": "active",
        "scope": {
          "coding": [
            {
              "code": "treatment"
            }
          ],
          "text": "treatment"
        },
        "category": [
          {
            "coding": [
              {
                "display": "Patient Consent",
                "code": "59284-0",
                "system": "http://loinc.org"
              }
            ]
          }
        ],
        "patient": {
          "reference": "Patient/CNYSCN-healthelink-20240327-testcase1-MRN"
        },
        "dateTime": "2023-04-02T08:41:20.000000+04:00",
        "organization": [
          {
            "reference": "Organization/CNYSCN"
          }
        ]
      }
    },
    {
      "fullUrl": "https://synthetic.fhir.api.techbd.org/r4/organization/crossroads-ny-social-care-network-bus-cnyscn",
      "resource": {
        "resourceType": "Organization",
        "id": "CNYSCN",
        "meta": {
          "lastUpdated": "2023-04-02T08:41:20.000000+04:00",
          "profile": [
            "http://shinny.org/StructureDefinition/shin-ny-organization"
          ]
        },
        "identifier": [
          {
            "system": "https://synthetic.fhir.api.techbd.org/facility/CNYSCN",
            "value": "crossroads-ny-social-care-network-bus-cnyscn"
          }
        ],
        "active": true,
        "name": "Crossroads NY Social Care Network",
        "address": [
          {
            "text": "25 W 45th st Suite 16",
            "city": "New York",
            "state": "New York",
            "postalCode": "10036"
          }
        ]
      }
    },
    {
      "fullUrl": "https://synthetic.fhir.api.techbd.org/r4/observation/observationResponseQuestion-healthelinkCZ8BSG71LI-94ffe50b997d4857a8605cb669242cd4-1",
      "resource": {
        "resourceType": "Observation",
        "id": "observationResponseQuestion-healthelinkCZ8BSG71LI-94ffe50b997d4857a8605cb669242cd4-1",
        "meta": {
          "lastUpdated": "1999-03-18T20:20:51.539131-03:00",
          "profile": [
            "http://hl7.org/fhir/us/sdoh-clinicalcare/StructureDefinition/SDOHCC-ObservationScreeningResponse"
          ]
        },
        "status": "amended",
        "category": [
          {
            "coding": [
              {
                "system": "http://terminology.hl7.org/CodeSystem/observation-category",
                "code": "social-history",
                "display": "Social History"
              }
            ]
          },
          {
            "coding": [
              {
                "system": "http://terminology.hl7.org/CodeSystem/observation-category",
                "code": "survey",
                "display": "Survey"
              }
            ]
          },
          {
            "coding": [
              {
                "system": "http://hl7.org/fhir/us/sdoh-clinicalcare/CodeSystem/SDOHCC-CodeSystemTemporaryCodes",
                "code": "sdoh-category-unspecified",
                "display": "SDOH Category Unspecified"
              }
            ]
          }
        ],
        "code": {
          "coding": [
            {
              "system": "http://loinc.org",
              "code": "71802-3",
              "display": "What is your living situation today?"
            }
          ]
        },
        "subject": {
          "reference": "Patient/CNYSCN-healthelink-20240327-testcase1-MRN"
        },
        "effectiveDateTime": "1999-03-18T20:20:51.539131-03:00",
        "issued": "1999-03-18T20:20:51.539131-03:00",
        "valueCodeableConcept": {
          "coding": [
            {
              "system": "http://loinc.org",
              "code": "LA31995-6",
              "display": "I do not have a steady place to live (I am temporarily staying with others, in a hotel, in a shelter, living outside on the street, on a beach, in a car, abandoned building, bus or train station, or in a park)"
            }
          ]
        },
        "interpretation": [
          {
            "coding": [
              {
                "system": "http://terminology.hl7.org/CodeSystem/v3-ObservationInterpretation",
                "code": "POS",
                "display": "Positive"
              }
            ]
          }
        ]
      }
    },
    {
      "fullUrl": "https://synthetic.fhir.api.techbd.org/r4/observation/observationResponseQuestion-healthelinkCZ8BSG71LI-94ffe50b997d4857a8605cb669242cd4-2",
      "resource": {
        "resourceType": "Observation",
        "id": "observationResponseQuestion-healthelinkCZ8BSG71LI-94ffe50b997d4857a8605cb669242cd4-2",
        "meta": {
          "lastUpdated": "1999-03-18T20:20:51.539131-03:00",
          "profile": [
            "http://hl7.org/fhir/us/sdoh-clinicalcare/StructureDefinition/SDOHCC-ObservationScreeningResponse"
          ]
        },
        "status": "amended",
        "category": [
          {
            "coding": [
              {
                "system": "http://terminology.hl7.org/CodeSystem/observation-category",
                "code": "social-history",
                "display": "Social History"
              }
            ]
          },
          {
            "coding": [
              {
                "system": "http://terminology.hl7.org/CodeSystem/observation-category",
                "code": "survey",
                "display": "Survey"
              }
            ]
          },
          {
            "coding": [
              {
                "system": "http://hl7.org/fhir/us/sdoh-clinicalcare/CodeSystem/SDOHCC-CodeSystemTemporaryCodes",
                "code": "sdoh-category-unspecified",
                "display": "SDOH Category Unspecified"
              }
            ]
          }
        ],
        "code": {
          "coding": [
            {
              "system": "http://loinc.org",
              "code": "96778-6",
              "display": "Think about the place you live. Do you have problems with any of the following?"
            }
          ]
        },
        "subject": {
          "reference": "Patient/CNYSCN-healthelink-20240327-testcase1-MRN"
        },
        "effectiveDateTime": "1999-03-18T20:20:51.539131-03:00",
        "issued": "1999-03-18T20:20:51.539131-03:00",
        "valueCodeableConcept": {
          "coding": [
            {
              "system": "http://loinc.org",
              "code": "LA31999-8",
              "display": "Oven or stove not working"
            }
          ]
        },
        "interpretation": [
          {
            "coding": [
              {
                "system": "http://terminology.hl7.org/CodeSystem/v3-ObservationInterpretation",
                "code": "POS",
                "display": "Positive"
              }
            ]
          }
        ]
      }
    },
    {
      "fullUrl": "https://synthetic.fhir.api.techbd.org/r4/observation/observationResponseQuestion-healthelinkCZ8BSG71LI-94ffe50b997d4857a8605cb669242cd4-3",
      "resource": {
        "resourceType": "Observation",
        "id": "observationResponseQuestion-healthelinkCZ8BSG71LI-94ffe50b997d4857a8605cb669242cd4-3",
        "meta": {
          "lastUpdated": "1999-03-18T20:20:51.539131-03:00",
          "profile": [
            "http://hl7.org/fhir/us/sdoh-clinicalcare/StructureDefinition/SDOHCC-ObservationScreeningResponse"
          ]
        },
        "status": "amended",
        "category": [
          {
            "coding": [
              {
                "system": "http://terminology.hl7.org/CodeSystem/observation-category",
                "code": "social-history",
                "display": "Social History"
              }
            ]
          },
          {
            "coding": [
              {
                "system": "http://terminology.hl7.org/CodeSystem/observation-category",
                "code": "survey",
                "display": "Survey"
              }
            ]
          },
          {
            "coding": [
              {
                "system": "http://hl7.org/fhir/us/sdoh-clinicalcare/CodeSystem/SDOHCC-CodeSystemTemporaryCodes",
                "code": "food-insecurity",
                "display": "Food Insecurity"
              }
            ]
          }
        ],
        "code": {
          "coding": [
            {
              "system": "http://loinc.org",
              "code": "88122-7",
              "display": "Within the past 12 months, you worried that your food would run out before you got money to buy more."
            }
          ]
        },
        "subject": {
          "reference": "Patient/CNYSCN-healthelink-20240327-testcase1-MRN"
        },
        "effectiveDateTime": "1999-03-18T20:20:51.539131-03:00",
        "issued": "1999-03-18T20:20:51.539131-03:00",
        "valueCodeableConcept": {
          "coding": [
            {
              "system": "http://loinc.org",
              "code": "LA6729-3",
              "display": "Sometimes true"
            }
          ]
        },
        "interpretation": [
          {
            "coding": [
              {
                "system": "http://terminology.hl7.org/CodeSystem/v3-ObservationInterpretation",
                "code": "POS",
                "display": "Positive"
              }
            ]
          }
        ]
      }
    },
    {
      "fullUrl": "https://synthetic.fhir.api.techbd.org/r4/observation/observationResponseQuestion-healthelinkCZ8BSG71LI-94ffe50b997d4857a8605cb669242cd4-4",
      "resource": {
        "resourceType": "Observation",
        "id": "observationResponseQuestion-healthelinkCZ8BSG71LI-94ffe50b997d4857a8605cb669242cd4-4",
        "meta": {
          "lastUpdated": "1999-03-18T20:20:51.539131-03:00",
          "profile": [
            "http://hl7.org/fhir/us/sdoh-clinicalcare/StructureDefinition/SDOHCC-ObservationScreeningResponse"
          ]
        },
        "status": "amended",
        "category": [
          {
            "coding": [
              {
                "system": "http://terminology.hl7.org/CodeSystem/observation-category",
                "code": "social-history",
                "display": "Social History"
              }
            ]
          },
          {
            "coding": [
              {
                "system": "http://terminology.hl7.org/CodeSystem/observation-category",
                "code": "survey",
                "display": "Survey"
              }
            ]
          },
          {
            "coding": [
              {
                "system": "http://hl7.org/fhir/us/sdoh-clinicalcare/CodeSystem/SDOHCC-CodeSystemTemporaryCodes",
                "code": "food-insecurity",
                "display": "Food Insecurity"
              }
            ]
          }
        ],
        "code": {
          "coding": [
            {
              "system": "http://loinc.org",
              "code": "88123-5",
              "display": "Within the past 12 months, the food you bought just didn't last and you didn't have money to get more."
            }
          ]
        },
        "subject": {
          "reference": "Patient/CNYSCN-healthelink-20240327-testcase1-MRN"
        },
        "effectiveDateTime": "1999-03-18T20:20:51.539131-03:00",
        "issued": "1999-03-18T20:20:51.539131-03:00",
        "valueCodeableConcept": {
          "coding": [
            {
              "system": "http://loinc.org",
              "code": "LA28398-8",
              "display": "Never true"
            }
          ]
        },
        "interpretation": [
          {
            "coding": [
              {
                "system": "http://terminology.hl7.org/CodeSystem/v3-ObservationInterpretation",
                "code": "POS",
                "display": "Positive"
              }
            ]
          }
        ]
      }
    },
    {
      "fullUrl": "https://synthetic.fhir.api.techbd.org/r4/observation/observationResponseQuestion-healthelinkCZ8BSG71LI-94ffe50b997d4857a8605cb669242cd4-5",
      "resource": {
        "resourceType": "Observation",
        "id": "observationResponseQuestion-healthelinkCZ8BSG71LI-94ffe50b997d4857a8605cb669242cd4-5",
        "meta": {
          "lastUpdated": "1999-03-18T20:20:51.539131-03:00",
          "profile": [
            "http://hl7.org/fhir/us/sdoh-clinicalcare/StructureDefinition/SDOHCC-ObservationScreeningResponse"
          ]
        },
        "status": "amended",
        "category": [
          {
            "coding": [
              {
                "system": "http://terminology.hl7.org/CodeSystem/observation-category",
                "code": "social-history",
                "display": "Social History"
              }
            ]
          },
          {
            "coding": [
              {
                "system": "http://terminology.hl7.org/CodeSystem/observation-category",
                "code": "survey",
                "display": "Survey"
              }
            ]
          },
          {
            "coding": [
              {
                "system": "http://hl7.org/fhir/us/sdoh-clinicalcare/CodeSystem/SDOHCC-CodeSystemTemporaryCodes",
                "code": "transportation-insecurity",
                "display": "Transportation Insecurity"
              }
            ]
          }
        ],
        "code": {
          "coding": [
            {
              "system": "http://loinc.org",
              "code": "93030-5",
              "display": "In the past 12 months, has lack of reliable transportation kept you from medical appointments, meetings, work or from getting things needed for daily living?"
            }
          ]
        },
        "subject": {
          "reference": "Patient/CNYSCN-healthelink-20240327-testcase1-MRN"
        },
        "effectiveDateTime": "1999-03-18T20:20:51.539131-03:00",
        "issued": "1999-03-18T20:20:51.539131-03:00",
        "valueCodeableConcept": {
          "coding": [
            {
              "system": "http://loinc.org",
              "code": "LA32-8",
              "display": "No"
            }
          ]
        },
        "interpretation": [
          {
            "coding": [
              {
                "system": "http://terminology.hl7.org/CodeSystem/v3-ObservationInterpretation",
                "code": "POS",
                "display": "Positive"
              }
            ]
          }
        ]
      }
    },
    {
      "fullUrl": "https://synthetic.fhir.api.techbd.org/r4/observation/observationResponseQuestion-healthelinkCZ8BSG71LI-94ffe50b997d4857a8605cb669242cd4-6",
      "resource": {
        "resourceType": "Observation",
        "id": "observationResponseQuestion-healthelinkCZ8BSG71LI-94ffe50b997d4857a8605cb669242cd4-6",
        "meta": {
          "lastUpdated": "1999-03-18T20:20:51.539131-03:00",
          "profile": [
            "http://hl7.org/fhir/us/sdoh-clinicalcare/StructureDefinition/SDOHCC-ObservationScreeningResponse"
          ]
        },
        "status": "amended",
        "category": [
          {
            "coding": [
              {
                "system": "http://terminology.hl7.org/CodeSystem/observation-category",
                "code": "social-history",
                "display": "Social History"
              }
            ]
          },
          {
            "coding": [
              {
                "system": "http://terminology.hl7.org/CodeSystem/observation-category",
                "code": "survey",
                "display": "Survey"
              }
            ]
          },
          {
            "coding": [
              {
                "system": "http://hl7.org/fhir/us/sdoh-clinicalcare/CodeSystem/SDOHCC-CodeSystemTemporaryCodes",
                "code": "sdoh-category-unspecified",
                "display": "SDOH Category Unspecified"
              }
            ]
          }
        ],
        "code": {
          "coding": [
            {
              "system": "http://loinc.org",
              "code": "96779-4",
              "display": "In the past 12 months has the electric, gas, oil, or water company threatened to shut off services in your home?"
            }
          ]
        },
        "subject": {
          "reference": "Patient/CNYSCN-healthelink-20240327-testcase1-MRN"
        },
        "effectiveDateTime": "1999-03-18T20:20:51.539131-03:00",
        "issued": "1999-03-18T20:20:51.539131-03:00",
        "valueCodeableConcept": {
          "coding": [
            {
              "system": "http://loinc.org",
              "code": "LA32-8",
              "display": "No"
            }
          ]
        },
        "interpretation": [
          {
            "coding": [
              {
                "system": "http://terminology.hl7.org/CodeSystem/v3-ObservationInterpretation",
                "code": "POS",
                "display": "Positive"
              }
            ]
          }
        ]
      }
    },
    {
      "fullUrl": "https://synthetic.fhir.api.techbd.org/r4/observation/observationResponseQuestion-healthelinkCZ8BSG71LI-94ffe50b997d4857a8605cb669242cd4-7",
      "resource": {
        "resourceType": "Observation",
        "id": "observationResponseQuestion-healthelinkCZ8BSG71LI-94ffe50b997d4857a8605cb669242cd4-7",
        "meta": {
          "lastUpdated": "1999-03-18T20:20:51.539131-03:00",
          "profile": [
            "http://hl7.org/fhir/us/sdoh-clinicalcare/StructureDefinition/SDOHCC-ObservationScreeningResponse"
          ]
        },
        "status": "amended",
        "category": [
          {
            "coding": [
              {
                "system": "http://terminology.hl7.org/CodeSystem/observation-category",
                "code": "social-history",
                "display": "Social History"
              }
            ]
          },
          {
            "coding": [
              {
                "system": "http://terminology.hl7.org/CodeSystem/observation-category",
                "code": "survey",
                "display": "Survey"
              }
            ]
          },
          {
            "coding": [
              {
                "system": "http://hl7.org/fhir/us/sdoh-clinicalcare/CodeSystem/SDOHCC-CodeSystemTemporaryCodes",
                "code": "sdoh-category-unspecified",
                "display": "SDOH Category Unspecified"
              }
            ]
          }
        ],
        "code": {
          "coding": [
            {
              "system": "http://loinc.org",
              "code": "95618-5",
              "display": "How often does anyone, including family and friends, physically hurt you?"
            }
          ]
        },
        "subject": {
          "reference": "Patient/CNYSCN-healthelink-20240327-testcase1-MRN"
        },
        "effectiveDateTime": "1999-03-18T20:20:51.539131-03:00",
        "issued": "1999-03-18T20:20:51.539131-03:00",
        "valueCodeableConcept": {
          "coding": [
            {
              "system": "http://loinc.org",
              "code": "LA10082-8",
              "display": "Sometimes"
            }
          ]
        },
        "interpretation": [
          {
            "coding": [
              {
                "system": "http://terminology.hl7.org/CodeSystem/v3-ObservationInterpretation",
                "code": "POS",
                "display": "Positive"
              }
            ]
          }
        ]
      }
    },
    {
      "fullUrl": "https://synthetic.fhir.api.techbd.org/r4/observation/observationResponseQuestion-healthelinkCZ8BSG71LI-94ffe50b997d4857a8605cb669242cd4-8",
      "resource": {
        "resourceType": "Observation",
        "id": "observationResponseQuestion-healthelinkCZ8BSG71LI-94ffe50b997d4857a8605cb669242cd4-8",
        "meta": {
          "lastUpdated": "1999-03-18T20:20:51.539131-03:00",
          "profile": [
            "http://hl7.org/fhir/us/sdoh-clinicalcare/StructureDefinition/SDOHCC-ObservationScreeningResponse"
          ]
        },
        "status": "amended",
        "category": [
          {
            "coding": [
              {
                "system": "http://terminology.hl7.org/CodeSystem/observation-category",
                "code": "social-history",
                "display": "Social History"
              }
            ]
          },
          {
            "coding": [
              {
                "system": "http://terminology.hl7.org/CodeSystem/observation-category",
                "code": "survey",
                "display": "Survey"
              }
            ]
          },
          {
            "coding": [
              {
                "system": "http://hl7.org/fhir/us/sdoh-clinicalcare/CodeSystem/SDOHCC-CodeSystemTemporaryCodes",
                "code": "sdoh-category-unspecified",
                "display": "SDOH Category Unspecified"
              }
            ]
          }
        ],
        "code": {
          "coding": [
            {
              "system": "http://loinc.org",
              "code": "95617-7",
              "display": "How often does anyone, including family and friends, insult or talk down to you?"
            }
          ]
        },
        "subject": {
          "reference": "Patient/CNYSCN-healthelink-20240327-testcase1-MRN"
        },
        "effectiveDateTime": "1999-03-18T20:20:51.539131-03:00",
        "issued": "1999-03-18T20:20:51.539131-03:00",
        "valueCodeableConcept": {
          "coding": [
            {
              "system": "http://loinc.org",
              "code": "LA10066-1",
              "display": "Rarely"
            }
          ]
        },
        "interpretation": [
          {
            "coding": [
              {
                "system": "http://terminology.hl7.org/CodeSystem/v3-ObservationInterpretation",
                "code": "POS",
                "display": "Positive"
              }
            ]
          }
        ]
      }
    },
    {
      "fullUrl": "https://synthetic.fhir.api.techbd.org/r4/observation/observationResponseQuestion-healthelinkCZ8BSG71LI-94ffe50b997d4857a8605cb669242cd4-9",
      "resource": {
        "resourceType": "Observation",
        "id": "observationResponseQuestion-healthelinkCZ8BSG71LI-94ffe50b997d4857a8605cb669242cd4-9",
        "meta": {
          "lastUpdated": "1999-03-18T20:20:51.539131-03:00",
          "profile": [
            "http://hl7.org/fhir/us/sdoh-clinicalcare/StructureDefinition/SDOHCC-ObservationScreeningResponse"
          ]
        },
        "status": "amended",
        "category": [
          {
            "coding": [
              {
                "system": "http://terminology.hl7.org/CodeSystem/observation-category",
                "code": "social-history",
                "display": "Social History"
              }
            ]
          },
          {
            "coding": [
              {
                "system": "http://terminology.hl7.org/CodeSystem/observation-category",
                "code": "survey",
                "display": "Survey"
              }
            ]
          },
          {
            "coding": [
              {
                "system": "http://hl7.org/fhir/us/sdoh-clinicalcare/CodeSystem/SDOHCC-CodeSystemTemporaryCodes",
                "code": "sdoh-category-unspecified",
                "display": "SDOH Category Unspecified"
              }
            ]
          }
        ],
        "code": {
          "coding": [
            {
              "system": "http://loinc.org",
              "code": "95616-9",
              "display": "How often does anyone, including family and friends, threaten you with harm?"
            }
          ]
        },
        "subject": {
          "reference": "Patient/CNYSCN-healthelink-20240327-testcase1-MRN"
        },
        "effectiveDateTime": "1999-03-18T20:20:51.539131-03:00",
        "issued": "1999-03-18T20:20:51.539131-03:00",
        "valueCodeableConcept": {
          "coding": [
            {
              "system": "http://loinc.org",
              "code": "LA10066-1",
              "display": "Rarely"
            }
          ]
        },
        "interpretation": [
          {
            "coding": [
              {
                "system": "http://terminology.hl7.org/CodeSystem/v3-ObservationInterpretation",
                "code": "POS",
                "display": "Positive"
              }
            ]
          }
        ]
      }
    },
    {
      "fullUrl": "https://synthetic.fhir.api.techbd.org/r4/observation/observationResponseQuestion-healthelinkCZ8BSG71LI-94ffe50b997d4857a8605cb669242cd4-10",
      "resource": {
        "resourceType": "Observation",
        "id": "observationResponseQuestion-healthelinkCZ8BSG71LI-94ffe50b997d4857a8605cb669242cd4-10",
        "meta": {
          "lastUpdated": "1999-03-18T20:20:51.539131-03:00",
          "profile": [
            "http://hl7.org/fhir/us/sdoh-clinicalcare/StructureDefinition/SDOHCC-ObservationScreeningResponse"
          ]
        },
        "status": "amended",
        "category": [
          {
            "coding": [
              {
                "system": "http://terminology.hl7.org/CodeSystem/observation-category",
                "code": "social-history",
                "display": "Social History"
              }
            ]
          },
          {
            "coding": [
              {
                "system": "http://terminology.hl7.org/CodeSystem/observation-category",
                "code": "survey",
                "display": "Survey"
              }
            ]
          },
          {
            "coding": [
              {
                "system": "http://hl7.org/fhir/us/sdoh-clinicalcare/CodeSystem/SDOHCC-CodeSystemTemporaryCodes",
                "code": "sdoh-category-unspecified",
                "display": "SDOH Category Unspecified"
              }
            ]
          }
        ],
        "code": {
          "coding": [
            {
              "system": "http://loinc.org",
              "code": "95615-1",
              "display": "How often does anyone, including family and friends, scream or curse at you?"
            }
          ]
        },
        "subject": {
          "reference": "Patient/CNYSCN-healthelink-20240327-testcase1-MRN"
        },
        "effectiveDateTime": "1999-03-18T20:20:51.539131-03:00",
        "issued": "1999-03-18T20:20:51.539131-03:00",
        "valueCodeableConcept": {
          "coding": [
            {
              "system": "http://loinc.org",
              "code": "LA6482-9",
              "display": "Frequently"
            }
          ]
        },
        "interpretation": [
          {
            "coding": [
              {
                "system": "http://terminology.hl7.org/CodeSystem/v3-ObservationInterpretation",
                "code": "POS",
                "display": "Positive"
              }
            ]
          }
        ]
      }
    },
    {
      "fullUrl": "https://synthetic.fhir.api.techbd.org/r4/observation/observationResponseQuestion-healthelinkCZ8BSG71LI-94ffe50b997d4857a8605cb669242cd4-11",
      "resource": {
        "resourceType": "Observation",
        "id": "observationResponseQuestion-healthelinkCZ8BSG71LI-94ffe50b997d4857a8605cb669242cd4-11",
        "meta": {
          "lastUpdated": "1999-03-18T20:20:51.539131-03:00",
          "profile": [
            "http://hl7.org/fhir/us/sdoh-clinicalcare/StructureDefinition/SDOHCC-ObservationScreeningResponse"
          ]
        },
        "status": "amended",
        "category": [
          {
            "coding": [
              {
                "system": "http://terminology.hl7.org/CodeSystem/observation-category",
                "code": "social-history",
                "display": "Social History"
              }
            ]
          },
          {
            "coding": [
              {
                "system": "http://terminology.hl7.org/CodeSystem/observation-category",
                "code": "survey",
                "display": "Survey"
              }
            ]
          },
          {
            "coding": [
              {
                "system": "http://hl7.org/fhir/us/sdoh-clinicalcare/CodeSystem/SDOHCC-CodeSystemTemporaryCodes",
                "code": "sdoh-category-unspecified",
                "display": "SDOH Category Unspecified"
              }
            ]
          }
        ],
        "code": {
          "coding": [
            {
              "system": "http://loinc.org",
              "code": "95614-4",
              "display": "Total Safety Score"
            }
          ]
        },
        "subject": {
          "reference": "Patient/CNYSCN-healthelink-20240327-testcase1-MRN"
        },
        "effectiveDateTime": "1999-03-18T20:20:51.539131-03:00",
        "issued": "1999-03-18T20:20:51.539131-03:00",
        "valueCodeableConcept": {
          "coding": [
            {
              "system": "http://unitsofmeasure.org",
              "code": "{score}",
              "display": "12"
            }
          ]
        },
        "derivedFrom": [
          {
            "reference": "Observation/observationResponseQuestion-healthelinkCZ8BSG71LI-94ffe50b997d4857a8605cb669242cd4-8"
          },
          {
            "reference": "Observation/observationResponseQuestion-healthelinkCZ8BSG71LI-94ffe50b997d4857a8605cb669242cd4-10"
          },
          {
            "reference": "Observation/observationResponseQuestion-healthelinkCZ8BSG71LI-94ffe50b997d4857a8605cb669242cd4-9"
          },
          {
            "reference": "Observation/observationResponseQuestion-healthelinkCZ8BSG71LI-94ffe50b997d4857a8605cb669242cd4-7"
          }
        ],
        "interpretation": [
          {
            "coding": [
              {
                "system": "http://terminology.hl7.org/CodeSystem/v3-ObservationInterpretation",
                "code": "POS",
                "display": "Positive"
              }
            ]
          }
        ]
      }
    },
    {
      "fullUrl": "https://synthetic.fhir.api.techbd.org/r4/observation/observationResponseQuestion-healthelinkCZ8BSG71LI-94ffe50b997d4857a8605cb669242cd4-11-grouper",
      "resource": {
        "resourceType": "Observation",
        "id": "observationResponseQuestion-healthelinkCZ8BSG71LI-94ffe50b997d4857a8605cb669242cd4-11-grouper",
        "meta": {
          "lastUpdated": "1999-03-18T20:20:51.539131-03:00",
          "profile": [
            "http://hl7.org/fhir/us/sdoh-clinicalcare/StructureDefinition/SDOHCC-ObservationScreeningResponse"
          ]
        },
        "status": "amended",
        "category": [
          {
            "coding": [
              {
                "system": "http://terminology.hl7.org/CodeSystem/observation-category",
                "code": "social-history",
                "display": "Social History"
              }
            ]
          },
          {
            "coding": [
              {
                "system": "http://terminology.hl7.org/CodeSystem/observation-category",
                "code": "survey",
                "display": "Survey"
              }
            ]
          },
          {
            "coding": [
              {
                "system": "http://hl7.org/fhir/us/sdoh-clinicalcare/CodeSystem/SDOHCC-CodeSystemTemporaryCodes",
                "display": "Food Insecurity",
                "code": "food-insecurity"
              },
              {
                "system": "http://hl7.org/fhir/us/sdoh-clinicalcare/CodeSystem/SDOHCC-CodeSystemTemporaryCodes",
                "display": "Transportation Insecurity",
                "code": "transportation-insecurity"
              },
              {
                "system": "http://hl7.org/fhir/us/sdoh-clinicalcare/CodeSystem/SDOHCC-CodeSystemTemporaryCodes",
                "display": "SDOH Category Unspecified",
                "code": "sdoh-category-unspecified"
              }
            ]
          }
        ],
        "code": {
          "coding": [
            {
              "system": "http://loinc.org",
              "code": "96777-8",
              "display": "Accountable health communities (AHC) health-related social needs screening (HRSN) tool"
            }
          ]
        },
        "subject": {
          "reference": "Patient/CNYSCN-healthelink-20240327-testcase1-MRN"
        },
        "encounter": {
          "reference": "Encounter/healthelinkCZ8BSG71LI"
        },
        "effectiveDateTime": "1999-03-18T20:20:51.539131-03:00",
        "issued": "1999-03-18T20:20:51.539131-03:00",
        "hasMember": [
          {
            "reference": "Observation/observationResponseQuestion-healthelinkCZ8BSG71LI-94ffe50b997d4857a8605cb669242cd4-7"
          },
          {
            "reference": "Observation/observationResponseQuestion-healthelinkCZ8BSG71LI-94ffe50b997d4857a8605cb669242cd4-8"
          },
          {
            "reference": "Observation/observationResponseQuestion-healthelinkCZ8BSG71LI-94ffe50b997d4857a8605cb669242cd4-9"
          },
          {
            "reference": "Observation/observationResponseQuestion-healthelinkCZ8BSG71LI-94ffe50b997d4857a8605cb669242cd4-10"
          },
          {
            "reference": "Observation/observationResponseQuestion-healthelinkCZ8BSG71LI-94ffe50b997d4857a8605cb669242cd4-11"
          },
          {
            "reference": "Observation/observationResponseQuestion-healthelinkCZ8BSG71LI-94ffe50b997d4857a8605cb669242cd4-1"
          },
          {
            "reference": "Observation/observationResponseQuestion-healthelinkCZ8BSG71LI-94ffe50b997d4857a8605cb669242cd4-2"
          },
          {
            "reference": "Observation/observationResponseQuestion-healthelinkCZ8BSG71LI-94ffe50b997d4857a8605cb669242cd4-3"
          },
          {
            "reference": "Observation/observationResponseQuestion-healthelinkCZ8BSG71LI-94ffe50b997d4857a8605cb669242cd4-4"
          },
          {
            "reference": "Observation/observationResponseQuestion-healthelinkCZ8BSG71LI-94ffe50b997d4857a8605cb669242cd4-5"
          },
          {
            "reference": "Observation/observationResponseQuestion-healthelinkCZ8BSG71LI-94ffe50b997d4857a8605cb669242cd4-6"
          }
        ]
      }
    },
    {
      "fullUrl": "https://synthetic.fhir.api.techbd.org/r4/Patient/CNYSCN-healthelink-20240327-testcase1-MRN",
      "resource": {
        "resourceType": "Patient",
        "id": "CNYSCN-healthelink-20240327-testcase1-MRN",
        "meta": {
          "lastUpdated": "2023-04-02T08:41:20.000000+04:00",
          "profile": [
            "http://shinny.org/StructureDefinition/shinny-patient"
          ]
        },
        "language": "en",
        "extension": [
          {
            "extension": [
              {
                "url": "ombCategory",
                "valueCoding": {
                  "system": "urn:oid:2.16.840.1.113883.6.238",
                  "code": "1019-9",
                  "display": "White Mountain Apache"
                }
              }
            ],
            "url": "http://hl7.org/fhir/us/core/StructureDefinition/us-core-race"
          },
          {
            "extension": [
              {
                "url": "ombCategory",
                "valueCoding": {
                  "system": "urn:oid:2.16.840.1.113883.6.238",
                  "code": "2137-8",
                  "display": "Spaniard"
                }
              }
            ],
            "url": "http://hl7.org/fhir/us/core/StructureDefinition/us-core-ethnicity"
          },
          {
            "url": "http://hl7.org/fhir/us/core/StructureDefinition/us-core-birthsex",
            "valueCode": "M"
          },
          {
            "url": "http://shinny.org/StructureDefinition/shinny-sexual-orientation",
            "valueCodeableConcept": {
              "coding": [
                {
                  "system": "http://snomed.info/sct",
                  "code": "42035005",
                  "display": "Bisexual"
                }
              ]
            }
          }
        ],
        "identifier": [
          {
            "type": {
              "coding": [
                {
                  "system": "http://terminology.hl7.org/CodeSystem/v2-0203",
                  "code": "MR"
                }
              ],
              "text": "Medical Record Number"
            },
            "system": "https://synthetic.fhir.api.techbd.org/facility/CNYSCN",
            "value": "healthelink-20240327-testcase1-MRN",
            "assigner": {
              "reference": "Organization/CNYSCN"
            }
          },
          {
            "type": {
              "coding": [
                {
                  "system": "http://terminology.hl7.org/CodeSystem/v2-0203",
                  "code": "MA"
                }
              ]
            },
            "system": "http://www.medicaid.gov/",
            "value": "MK72165H",
            "assigner": {
              "reference": "Organization/2.16.840.1.113883.3.249"
            }
          },
          {
            "type": {
              "coding": [
                {
                  "system": "http://terminology.hl7.org/CodeSystem/v2-0203",
                  "code": "PN"
                }
              ]
            },
            "system": "http://www.acme.com/identifiers/patient",
            "value": "MPIData"
          }
        ],
        "name": [
          {
            "text": "Anthony Todd Johnson",
            "family": "Johnson",
            "given": [
              "Anthony",
              "Todd"
            ]
          }
        ],
        "gender": "male",
        "birthDate": "2019-09-19",
        "address": [
          {
            "text": "7207 Murray Fort ",
            "line": [
              "7207 Murray Fort"
            ],
            "city": "New Rochelle",
            "state": "NY",
            "postalCode": "10801"
          }
        ],
        "communication": [
          {
            "language": {
              "coding": [
                {
                  "code": "kon"
                }
              ]
            },
            "preferred": true
          }
        ]
      }
    },
    {
      "fullUrl": "https://synthetic.fhir.api.techbd.org/r4/encounter/healthelinkCZ8BSG71LI",
      "resource": {
        "resourceType": "Encounter",
        "id": "healthelinkCZ8BSG71LI",
        "meta": {
          "lastUpdated": "1999-03-18T20:20:51.539131-03:00",
          "profile": [
            "http://shinny.org/StructureDefinition/shin-ny-encounter"
          ]
        },
        "status": "entered-in-error",
        "class": {
          "system": "http://terminology.hl7.org/CodeSystem/v3-ActCode",
          "code": "IMP"
        },
        "type": [
          {
            "coding": [
              {
                "system": "http://snomed.info/sct",
                "code": "23918007",
                "display": "History taking, self-administered, by computer terminal"
              }
            ],
            "text": "History taking, self-administered, by computer terminal"
          }
        ],
        "subject": {
          "reference": "Patient/CNYSCN-healthelink-20240327-testcase1-MRN"
        }
      }
    }
  ]
}