{
  "resourceType": "Bundle",
  "id": "2822c0b0-1d9a-11ef-abdc-ed16583fed7f-healthelink-20240327-testcase1-MRN-healthelinkS8KXK30S8W",
  "type": "transaction",
  "meta": {
    "lastUpdated": "1999-03-18T20:20:51.539131-03:00"
  },
  "timestamp": "2024-05-29T09:02:20.731Z",
  "entry": [
    {
      "resource": {
        "resourceType": "Consent",
        "id": "consentForhealthelink-20240327-testcase1-MRN",
        "meta": {
          "lastUpdated": "1999-03-18T20:20:51.539131-03:00",
          "profile": [
            "http://shinny.org/StructureDefinition/shin-ny-consent"
          ]
        },
        "status": "active",
        "scope": {
          "coding": [
            {
              "code": "treatment"
            }
          ],
          "text": "treatment"
        },
        "category": [
          {
            "coding": [
              {
                "display": "Patient Consent",
                "code": "59284-0",
                "system": "http://loinc.org"
              }
            ]
          }
        ],
        "patient": {
          "reference": "Patient/CNYSCN-healthelink-20240327-testcase1-MRN"
        },
        "dateTime": "1999-03-18T20:20:51.539131-03:00",
        "organization": [
          {
            "reference": "Organization/CNYSCN"
          }
        ]
      }
    },
    {
      "fullUrl": "https://synthetic.fhir.api.techbd.org/r4/observation/observationResponseQuestion-healthelinkS8KXK30S8W-efd3edf7a30bcb9a8ca91c244ddfc7c2-12",
      "resource": {
        "resourceType": "Observation",
        "id": "observationResponseQuestion-healthelinkS8KXK30S8W-efd3edf7a30bcb9a8ca91c244ddfc7c2-12",
        "meta": {
          "lastUpdated": "1979-09-18T19:25:23.479719+03:00",
          "profile": [
            "http://hl7.org/fhir/us/sdoh-clinicalcare/StructureDefinition/SDOHCC-ObservationScreeningResponse"
          ]
        },
        "status": "amended",
        "category": [
          {
            "coding": [
              {
                "system": "http://terminology.hl7.org/CodeSystem/observation-category",
                "code": "social-history",
                "display": "Social History"
              }
            ]
          },
          {
            "coding": [
              {
                "system": "http://terminology.hl7.org/CodeSystem/observation-category",
                "code": "survey",
                "display": "Survey"
              }
            ]
          },
          {
            "coding": [
              {
                "system": "http://hl7.org/fhir/us/sdoh-clinicalcare/CodeSystem/SDOHCC-CodeSystemTemporaryCodes",
                "code": "financial-insecurity",
                "display": "Financial Insecurity"
              }
            ]
          }
        ],
        "code": {
          "coding": [
            {
              "system": "http://loinc.org",
              "code": "76513-1",
              "display": "How hard is it for you to pay for the very basics like food, housing, medical care, and heating? Would you say it is"
            }
          ]
        },
        "subject": {
          "reference": "Patient/CNYSCN-healthelink-20240327-testcase1-MRN"
        },
        "effectiveDateTime": "1979-09-18T19:25:23.479719+03:00",
        "issued": "1979-09-18T19:25:23.479719+03:00",
        "valueCodeableConcept": {
          "coding": [
            {
              "system": "http://loinc.org",
              "code": "LA22683-9",
              "display": "Somewhat hard"
            }
          ]
        },
        "interpretation": [
          {
            "coding": [
              {
                "system": "http://terminology.hl7.org/CodeSystem/v3-ObservationInterpretation",
                "code": "POS",
                "display": "Positive"
              }
            ]
          }
        ]
      }
    },
    {
      "fullUrl": "https://synthetic.fhir.api.techbd.org/r4/observation/observationResponseQuestion-healthelinkS8KXK30S8W-efd3edf7a30bcb9a8ca91c244ddfc7c2-13",
      "resource": {
        "resourceType": "Observation",
        "id": "observationResponseQuestion-healthelinkS8KXK30S8W-efd3edf7a30bcb9a8ca91c244ddfc7c2-13",
        "meta": {
          "lastUpdated": "1979-09-18T19:25:23.479719+03:00",
          "profile": [
            "http://hl7.org/fhir/us/sdoh-clinicalcare/StructureDefinition/SDOHCC-ObservationScreeningResponse"
          ]
        },
        "status": "amended",
        "category": [
          {
            "coding": [
              {
                "system": "http://terminology.hl7.org/CodeSystem/observation-category",
                "code": "social-history",
                "display": "Social History"
              }
            ]
          },
          {
            "coding": [
              {
                "system": "http://terminology.hl7.org/CodeSystem/observation-category",
                "code": "survey",
                "display": "Survey"
              }
            ]
          },
          {
            "coding": [
              {
                "system": "http://hl7.org/fhir/us/sdoh-clinicalcare/CodeSystem/SDOHCC-CodeSystemTemporaryCodes",
                "code": "employment-status",
                "display": "Employment Status"
              }
            ]
          }
        ],
        "code": {
          "coding": [
            {
              "system": "http://loinc.org",
              "code": "96780-2",
              "display": "Do you want help finding or keeping work or a job?"
            }
          ]
        },
        "subject": {
          "reference": "Patient/CNYSCN-healthelink-20240327-testcase1-MRN"
        },
        "effectiveDateTime": "1979-09-18T19:25:23.479719+03:00",
        "issued": "1979-09-18T19:25:23.479719+03:00",
        "valueCodeableConcept": {
          "coding": [
            {
              "system": "http://loinc.org",
              "code": "LA31983-2",
              "display": "I do not need or want help"
            }
          ]
        },
        "interpretation": [
          {
            "coding": [
              {
                "system": "http://terminology.hl7.org/CodeSystem/v3-ObservationInterpretation",
                "code": "POS",
                "display": "Positive"
              }
            ]
          }
        ]
      }
    },
    {
      "fullUrl": "https://synthetic.fhir.api.techbd.org/r4/observation/observationResponseQuestion-healthelinkS8KXK30S8W-efd3edf7a30bcb9a8ca91c244ddfc7c2-14",
      "resource": {
        "resourceType": "Observation",
        "id": "observationResponseQuestion-healthelinkS8KXK30S8W-efd3edf7a30bcb9a8ca91c244ddfc7c2-14",
        "meta": {
          "lastUpdated": "1979-09-18T19:25:23.479719+03:00",
          "profile": [
            "http://hl7.org/fhir/us/sdoh-clinicalcare/StructureDefinition/SDOHCC-ObservationScreeningResponse"
          ]
        },
        "status": "amended",
        "category": [
          {
            "coding": [
              {
                "system": "http://terminology.hl7.org/CodeSystem/observation-category",
                "code": "social-history",
                "display": "Social History"
              }
            ]
          },
          {
            "coding": [
              {
                "system": "http://terminology.hl7.org/CodeSystem/observation-category",
                "code": "survey",
                "display": "Survey"
              }
            ]
          },
          {
            "coding": [
              {
                "system": "http://hl7.org/fhir/us/sdoh-clinicalcare/CodeSystem/SDOHCC-CodeSystemTemporaryCodes",
                "code": "social-connection",
                "display": "Social Connection"
              }
            ]
          }
        ],
        "code": {
          "coding": [
            {
              "system": "http://loinc.org",
              "code": "96781-0",
              "display": "If for any reason you need help with day-to-day activities such as bathing, preparing meals, shopping, managing finances, etc., do you get the help you need?"
            }
          ]
        },
        "subject": {
          "reference": "Patient/CNYSCN-healthelink-20240327-testcase1-MRN"
        },
        "effectiveDateTime": "1979-09-18T19:25:23.479719+03:00",
        "issued": "1979-09-18T19:25:23.479719+03:00",
        "valueCodeableConcept": {
          "coding": [
            {
              "system": "http://loinc.org",
              "code": "LA31977-4",
              "display": "I get all the help I need"
            }
          ]
        },
        "interpretation": [
          {
            "coding": [
              {
                "system": "http://terminology.hl7.org/CodeSystem/v3-ObservationInterpretation",
                "code": "POS",
                "display": "Positive"
              }
            ]
          }
        ]
      }
    },
    {
      "fullUrl": "https://synthetic.fhir.api.techbd.org/r4/observation/observationResponseQuestion-healthelinkS8KXK30S8W-efd3edf7a30bcb9a8ca91c244ddfc7c2-15",
      "resource": {
        "resourceType": "Observation",
        "id": "observationResponseQuestion-healthelinkS8KXK30S8W-efd3edf7a30bcb9a8ca91c244ddfc7c2-15",
        "meta": {
          "lastUpdated": "1979-09-18T19:25:23.479719+03:00",
          "profile": [
            "http://hl7.org/fhir/us/sdoh-clinicalcare/StructureDefinition/SDOHCC-ObservationScreeningResponse"
          ]
        },
        "status": "amended",
        "category": [
          {
            "coding": [
              {
                "system": "http://terminology.hl7.org/CodeSystem/observation-category",
                "code": "social-history",
                "display": "Social History"
              }
            ]
          },
          {
            "coding": [
              {
                "system": "http://terminology.hl7.org/CodeSystem/observation-category",
                "code": "survey",
                "display": "Survey"
              }
            ]
          },
          {
            "coding": [
              {
                "system": "http://hl7.org/fhir/us/sdoh-clinicalcare/CodeSystem/SDOHCC-CodeSystemTemporaryCodes",
                "code": "social-connection",
                "display": "Social Connection"
              }
            ]
          }
        ],
        "code": {
          "coding": [
            {
              "system": "http://loinc.org",
              "code": "93159-2",
              "display": "How often do you feel lonely or isolated from those around you?"
            }
          ]
        },
        "subject": {
          "reference": "Patient/CNYSCN-healthelink-20240327-testcase1-MRN"
        },
        "effectiveDateTime": "1979-09-18T19:25:23.479719+03:00",
        "issued": "1979-09-18T19:25:23.479719+03:00",
        "valueCodeableConcept": {
          "coding": [
            {
              "system": "http://loinc.org",
              "code": "LA9933-8",
              "display": "Always"
            }
          ]
        },
        "interpretation": [
          {
            "coding": [
              {
                "system": "http://terminology.hl7.org/CodeSystem/v3-ObservationInterpretation",
                "code": "POS",
                "display": "Positive"
              }
            ]
          }
        ]
      }
    },
    {
      "fullUrl": "https://synthetic.fhir.api.techbd.org/r4/observation/observationResponseQuestion-healthelinkS8KXK30S8W-efd3edf7a30bcb9a8ca91c244ddfc7c2-16",
      "resource": {
        "resourceType": "Observation",
        "id": "observationResponseQuestion-healthelinkS8KXK30S8W-efd3edf7a30bcb9a8ca91c244ddfc7c2-16",
        "meta": {
          "lastUpdated": "1979-09-18T19:25:23.479719+03:00",
          "profile": [
            "http://hl7.org/fhir/us/sdoh-clinicalcare/StructureDefinition/SDOHCC-ObservationScreeningResponse"
          ]
        },
        "status": "amended",
        "category": [
          {
            "coding": [
              {
                "system": "http://terminology.hl7.org/CodeSystem/observation-category",
                "code": "social-history",
                "display": "Social History"
              }
            ]
          },
          {
            "coding": [
              {
                "system": "http://terminology.hl7.org/CodeSystem/observation-category",
                "code": "survey",
                "display": "Survey"
              }
            ]
          },
          {
            "coding": [
              {
                "system": "http://hl7.org/fhir/us/sdoh-clinicalcare/CodeSystem/SDOHCC-CodeSystemTemporaryCodes",
                "code": "sdoh-category-unspecified",
                "display": "SDOH Category Unspecified"
              }
            ]
          }
        ],
        "code": {
          "coding": [
            {
              "system": "http://loinc.org",
              "code": "97027-7",
              "display": "Do you speak a language other than English at home?"
            }
          ]
        },
        "subject": {
          "reference": "Patient/CNYSCN-healthelink-20240327-testcase1-MRN"
        },
        "effectiveDateTime": "1979-09-18T19:25:23.479719+03:00",
        "issued": "1979-09-18T19:25:23.479719+03:00",
        "valueCodeableConcept": {
          "coding": [
            {
              "system": "http://loinc.org",
              "code": "LA33-6",
              "display": "Yes"
            }
          ]
        },
        "interpretation": [
          {
            "coding": [
              {
                "system": "http://terminology.hl7.org/CodeSystem/v3-ObservationInterpretation",
                "code": "POS",
                "display": "Positive"
              }
            ]
          }
        ]
      }
    },
    {
      "fullUrl": "https://synthetic.fhir.api.techbd.org/r4/observation/observationResponseQuestion-healthelinkS8KXK30S8W-efd3edf7a30bcb9a8ca91c244ddfc7c2-17",
      "resource": {
        "resourceType": "Observation",
        "id": "observationResponseQuestion-healthelinkS8KXK30S8W-efd3edf7a30bcb9a8ca91c244ddfc7c2-17",
        "meta": {
          "lastUpdated": "1979-09-18T19:25:23.479719+03:00",
          "profile": [
            "http://hl7.org/fhir/us/sdoh-clinicalcare/StructureDefinition/SDOHCC-ObservationScreeningResponse"
          ]
        },
        "status": "amended",
        "category": [
          {
            "coding": [
              {
                "system": "http://terminology.hl7.org/CodeSystem/observation-category",
                "code": "social-history",
                "display": "Social History"
              }
            ]
          },
          {
            "coding": [
              {
                "system": "http://terminology.hl7.org/CodeSystem/observation-category",
                "code": "survey",
                "display": "Survey"
              }
            ]
          },
          {
            "coding": [
              {
                "system": "http://hl7.org/fhir/us/sdoh-clinicalcare/CodeSystem/SDOHCC-CodeSystemTemporaryCodes",
                "code": "sdoh-category-unspecified",
                "display": "SDOH Category Unspecified"
              }
            ]
          }
        ],
        "code": {
          "coding": [
            {
              "system": "http://loinc.org",
              "code": "96782-8",
              "display": "Do you want help with school or training? For example, starting or completing job training or getting a high school diploma, GED or equivalent."
            }
          ]
        },
        "subject": {
          "reference": "Patient/CNYSCN-healthelink-20240327-testcase1-MRN"
        },
        "effectiveDateTime": "1979-09-18T19:25:23.479719+03:00",
        "issued": "1979-09-18T19:25:23.479719+03:00",
        "valueCodeableConcept": {
          "coding": [
            {
              "system": "http://loinc.org",
              "code": "LA32-8",
              "display": "No"
            }
          ]
        },
        "interpretation": [
          {
            "coding": [
              {
                "system": "http://terminology.hl7.org/CodeSystem/v3-ObservationInterpretation",
                "code": "POS",
                "display": "Positive"
              }
            ]
          }
        ]
      }
    },
    {
      "fullUrl": "https://synthetic.fhir.api.techbd.org/r4/observation/observationResponseQuestion-healthelinkS8KXK30S8W-efd3edf7a30bcb9a8ca91c244ddfc7c2-18",
      "resource": {
        "resourceType": "Observation",
        "id": "observationResponseQuestion-healthelinkS8KXK30S8W-efd3edf7a30bcb9a8ca91c244ddfc7c2-18",
        "meta": {
          "lastUpdated": "1979-09-18T19:25:23.479719+03:00",
          "profile": [
            "http://hl7.org/fhir/us/sdoh-clinicalcare/StructureDefinition/SDOHCC-ObservationScreeningResponse"
          ]
        },
        "status": "amended",
        "category": [
          {
            "coding": [
              {
                "system": "http://terminology.hl7.org/CodeSystem/observation-category",
                "code": "social-history",
                "display": "Social History"
              }
            ]
          },
          {
            "coding": [
              {
                "system": "http://terminology.hl7.org/CodeSystem/observation-category",
                "code": "survey",
                "display": "Survey"
              }
            ]
          },
          {
            "coding": [
              {
                "system": "http://hl7.org/fhir/us/sdoh-clinicalcare/CodeSystem/SDOHCC-CodeSystemTemporaryCodes",
                "code": "sdoh-category-unspecified",
                "display": "SDOH Category Unspecified"
              }
            ]
          }
        ],
        "code": {
          "coding": [
            {
              "system": "http://loinc.org",
              "code": "89555-7",
              "display": "In the last 30 days, other than the activities you did for work, on average, how many days per week did you engage in moderate exercise (like walking fast, running, jogging, dancing, swimming, biking, or other similar activities)"
            }
          ]
        },
        "subject": {
          "reference": "Patient/CNYSCN-healthelink-20240327-testcase1-MRN"
        },
        "effectiveDateTime": "1979-09-18T19:25:23.479719+03:00",
        "issued": "1979-09-18T19:25:23.479719+03:00",
        "valueCodeableConcept": {
          "coding": [
            {
              "system": "http://loinc.org",
              "code": "LA6115-5",
              "display": "4"
            }
          ]
        },
        "interpretation": [
          {
            "coding": [
              {
                "system": "http://terminology.hl7.org/CodeSystem/v3-ObservationInterpretation",
                "code": "POS",
                "display": "Positive"
              }
            ]
          }
        ]
      }
    },
    {
      "fullUrl": "https://synthetic.fhir.api.techbd.org/r4/observation/observationResponseQuestion-healthelinkS8KXK30S8W-efd3edf7a30bcb9a8ca91c244ddfc7c2-19",
      "resource": {
        "resourceType": "Observation",
        "id": "observationResponseQuestion-healthelinkS8KXK30S8W-efd3edf7a30bcb9a8ca91c244ddfc7c2-19",
        "meta": {
          "lastUpdated": "1979-09-18T19:25:23.479719+03:00",
          "profile": [
            "http://hl7.org/fhir/us/sdoh-clinicalcare/StructureDefinition/SDOHCC-ObservationScreeningResponse"
          ]
        },
        "status": "amended",
        "category": [
          {
            "coding": [
              {
                "system": "http://terminology.hl7.org/CodeSystem/observation-category",
                "code": "social-history",
                "display": "Social History"
              }
            ]
          },
          {
            "coding": [
              {
                "system": "http://terminology.hl7.org/CodeSystem/observation-category",
                "code": "survey",
                "display": "Survey"
              }
            ]
          },
          {
            "coding": [
              {
                "system": "http://hl7.org/fhir/us/sdoh-clinicalcare/CodeSystem/SDOHCC-CodeSystemTemporaryCodes",
                "code": "sdoh-category-unspecified",
                "display": "SDOH Category Unspecified"
              }
            ]
          }
        ],
        "code": {
          "coding": [
            {
              "system": "http://loinc.org",
              "code": "68516-4",
              "display": "On average, how many minutes did you usually spend exercising at this level on one of those days?"
            }
          ]
        },
        "subject": {
          "reference": "Patient/CNYSCN-healthelink-20240327-testcase1-MRN"
        },
        "effectiveDateTime": "1979-09-18T19:25:23.479719+03:00",
        "issued": "1979-09-18T19:25:23.479719+03:00",
        "valueCodeableConcept": {
          "coding": [
            {
              "system": "http://loinc.org",
              "code": "LA19282-5",
              "display": "20"
            }
          ]
        },
        "interpretation": [
          {
            "coding": [
              {
                "system": "http://terminology.hl7.org/CodeSystem/v3-ObservationInterpretation",
                "code": "POS",
                "display": "Positive"
              }
            ]
          }
        ]
      }
    },
    {
      "fullUrl": "https://synthetic.fhir.api.techbd.org/r4/observation/observationResponseQuestion-healthelinkS8KXK30S8W-efd3edf7a30bcb9a8ca91c244ddfc7c2-20",
      "resource": {
        "resourceType": "Observation",
        "id": "observationResponseQuestion-healthelinkS8KXK30S8W-efd3edf7a30bcb9a8ca91c244ddfc7c2-20",
        "meta": {
          "lastUpdated": "1979-09-18T19:25:23.479719+03:00",
          "profile": [
            "http://hl7.org/fhir/us/sdoh-clinicalcare/StructureDefinition/SDOHCC-ObservationScreeningResponse"
          ]
        },
        "status": "amended",
        "category": [
          {
            "coding": [
              {
                "system": "http://terminology.hl7.org/CodeSystem/observation-category",
                "code": "social-history",
                "display": "Social History"
              }
            ]
          },
          {
            "coding": [
              {
                "system": "http://terminology.hl7.org/CodeSystem/observation-category",
                "code": "survey",
                "display": "Survey"
              }
            ]
          },
          {
            "coding": [
              {
                "system": "http://hl7.org/fhir/us/sdoh-clinicalcare/CodeSystem/SDOHCC-CodeSystemTemporaryCodes",
                "code": "sdoh-category-unspecified",
                "display": "SDOH Category Unspecified"
              }
            ]
          }
        ],
        "code": {
          "coding": [
            {
              "display": "Calculated weekly physical activity"
            }
          ]
        },
        "subject": {
          "reference": "Patient/CNYSCN-healthelink-20240327-testcase1-MRN"
        },
        "effectiveDateTime": "1979-09-18T19:25:23.479719+03:00",
        "issued": "1979-09-18T19:25:23.479719+03:00",
        "valueCodeableConcept": {
          "coding": [
            {
              "system": "http://unitsofmeasure.org",
              "code": "min/wk",
              "display": "80"
            }
          ]
        },
        "derivedFrom": [
          {
            "reference": "Observation/observationResponseQuestion-healthelinkS8KXK30S8W-efd3edf7a30bcb9a8ca91c244ddfc7c2-19"
          },
          {
            "reference": "Observation/observationResponseQuestion-healthelinkS8KXK30S8W-efd3edf7a30bcb9a8ca91c244ddfc7c2-18"
          }
        ],
        "interpretation": [
          {
            "coding": [
              {
                "system": "http://terminology.hl7.org/CodeSystem/v3-ObservationInterpretation",
                "code": "POS",
                "display": "Positive"
              }
            ]
          }
        ]
      }
    },
    {
      "fullUrl": "https://synthetic.fhir.api.techbd.org/r4/observation/observationResponseQuestion-healthelinkS8KXK30S8W-efd3edf7a30bcb9a8ca91c244ddfc7c2-21",
      "resource": {
        "resourceType": "Observation",
        "id": "observationResponseQuestion-healthelinkS8KXK30S8W-efd3edf7a30bcb9a8ca91c244ddfc7c2-21",
        "meta": {
          "lastUpdated": "1979-09-18T19:25:23.479719+03:00",
          "profile": [
            "http://hl7.org/fhir/us/sdoh-clinicalcare/StructureDefinition/SDOHCC-ObservationScreeningResponse"
          ]
        },
        "status": "amended",
        "category": [
          {
            "coding": [
              {
                "system": "http://terminology.hl7.org/CodeSystem/observation-category",
                "code": "social-history",
                "display": "Social History"
              }
            ]
          },
          {
            "coding": [
              {
                "system": "http://terminology.hl7.org/CodeSystem/observation-category",
                "code": "survey",
                "display": "Survey"
              }
            ]
          },
          {
            "coding": [
              {
                "system": "http://hl7.org/fhir/us/sdoh-clinicalcare/CodeSystem/SDOHCC-CodeSystemTemporaryCodes",
                "code": "sdoh-category-unspecified",
                "display": "SDOH Category Unspecified"
              }
            ]
          }
        ],
        "code": {
          "coding": [
            {
              "system": "http://loinc.org",
              "code": "68517-2",
              "display": "How many times in the past 12 months have you had 5 or more drinks in a day (males) or 4 or more drinks in a day (females)?"
            }
          ]
        },
        "subject": {
          "reference": "Patient/CNYSCN-healthelink-20240327-testcase1-MRN"
        },
        "effectiveDateTime": "1979-09-18T19:25:23.479719+03:00",
        "issued": "1979-09-18T19:25:23.479719+03:00",
        "valueCodeableConcept": {
          "coding": [
            {
              "system": "http://loinc.org",
              "code": "LA18876-5",
              "display": "Monthly"
            }
          ]
        },
        "interpretation": [
          {
            "coding": [
              {
                "system": "http://terminology.hl7.org/CodeSystem/v3-ObservationInterpretation",
                "code": "POS",
                "display": "Positive"
              }
            ]
          }
        ]
      }
    },
    {
      "fullUrl": "https://synthetic.fhir.api.techbd.org/r4/observation/observationResponseQuestion-healthelinkS8KXK30S8W-efd3edf7a30bcb9a8ca91c244ddfc7c2-22",
      "resource": {
        "resourceType": "Observation",
        "id": "observationResponseQuestion-healthelinkS8KXK30S8W-efd3edf7a30bcb9a8ca91c244ddfc7c2-22",
        "meta": {
          "lastUpdated": "1979-09-18T19:25:23.479719+03:00",
          "profile": [
            "http://hl7.org/fhir/us/sdoh-clinicalcare/StructureDefinition/SDOHCC-ObservationScreeningResponse"
          ]
        },
        "status": "amended",
        "category": [
          {
            "coding": [
              {
                "system": "http://terminology.hl7.org/CodeSystem/observation-category",
                "code": "social-history",
                "display": "Social History"
              }
            ]
          },
          {
            "coding": [
              {
                "system": "http://terminology.hl7.org/CodeSystem/observation-category",
                "code": "survey",
                "display": "Survey"
              }
            ]
          },
          {
            "coding": [
              {
                "system": "http://hl7.org/fhir/us/sdoh-clinicalcare/CodeSystem/SDOHCC-CodeSystemTemporaryCodes",
                "code": "sdoh-category-unspecified",
                "display": "SDOH Category Unspecified"
              }
            ]
          }
        ],
        "code": {
          "coding": [
            {
              "system": "http://loinc.org",
              "code": "96842-0",
              "display": "How many times in the past 12 months have you used tobacco products (like cigarettes, cigars, snuff, chew, electronic cigarettes)?"
            }
          ]
        },
        "subject": {
          "reference": "Patient/CNYSCN-healthelink-20240327-testcase1-MRN"
        },
        "effectiveDateTime": "1979-09-18T19:25:23.479719+03:00",
        "issued": "1979-09-18T19:25:23.479719+03:00",
        "valueCodeableConcept": {
          "coding": [
            {
              "system": "http://loinc.org",
              "code": "LA26460-8",
              "display": "Once or Twice"
            }
          ]
        },
        "interpretation": [
          {
            "coding": [
              {
                "system": "http://terminology.hl7.org/CodeSystem/v3-ObservationInterpretation",
                "code": "POS",
                "display": "Positive"
              }
            ]
          }
        ]
      }
    },
    {
      "fullUrl": "https://synthetic.fhir.api.techbd.org/r4/organization/crossroads-ny-social-care-network-bus-cnyscn",
      "resource": {
        "resourceType": "Organization",
        "id": "CNYSCN",
        "meta": {
          "lastUpdated": "1999-03-18T20:20:51.539131-03:00",
          "profile": [
            "http://shinny.org/StructureDefinition/shin-ny-organization"
          ]
        },
        "identifier": [
          {
            "system": "https://synthetic.fhir.api.techbd.org/facility/CNYSCN",
            "value": "crossroads-ny-social-care-network-bus-cnyscn"
          }
        ],
        "active": true,
        "name": "Crossroads NY Social Care Network",
        "address": [
          {
            "text": "25 W 45th st Suite 16",
            "city": "New York",
            "state": "New York",
            "postalCode": "10036"
          }
        ]
      }
    },
    {
      "fullUrl": "https://synthetic.fhir.api.techbd.org/r4/observation/observationResponseQuestion-healthelinkS8KXK30S8W-efd3edf7a30bcb9a8ca91c244ddfc7c2-23",
      "resource": {
        "resourceType": "Observation",
        "id": "observationResponseQuestion-healthelinkS8KXK30S8W-efd3edf7a30bcb9a8ca91c244ddfc7c2-23",
        "meta": {
          "lastUpdated": "1979-09-18T19:25:23.479719+03:00",
          "profile": [
            "http://hl7.org/fhir/us/sdoh-clinicalcare/StructureDefinition/SDOHCC-ObservationScreeningResponse"
          ]
        },
        "status": "amended",
        "category": [
          {
            "coding": [
              {
                "system": "http://terminology.hl7.org/CodeSystem/observation-category",
                "code": "social-history",
                "display": "Social History"
              }
            ]
          },
          {
            "coding": [
              {
                "system": "http://terminology.hl7.org/CodeSystem/observation-category",
                "code": "survey",
                "display": "Survey"
              }
            ]
          },
          {
            "coding": [
              {
                "system": "http://hl7.org/fhir/us/sdoh-clinicalcare/CodeSystem/SDOHCC-CodeSystemTemporaryCodes",
                "code": "sdoh-category-unspecified",
                "display": "SDOH Category Unspecified"
              }
            ]
          }
        ],
        "code": {
          "coding": [
            {
              "system": "http://loinc.org",
              "code": "95530-2",
              "display": "How many times in the past year have you used prescription drugs for non-medical reasons?"
            }
          ]
        },
        "subject": {
          "reference": "Patient/CNYSCN-healthelink-20240327-testcase1-MRN"
        },
        "effectiveDateTime": "1979-09-18T19:25:23.479719+03:00",
        "issued": "1979-09-18T19:25:23.479719+03:00",
        "valueCodeableConcept": {
          "coding": [
            {
              "system": "http://loinc.org",
              "code": "LA6270-8",
              "display": "Never"
            }
          ]
        },
        "interpretation": [
          {
            "coding": [
              {
                "system": "http://terminology.hl7.org/CodeSystem/v3-ObservationInterpretation",
                "code": "POS",
                "display": "Positive"
              }
            ]
          }
        ]
      }
    },
    {
      "fullUrl": "https://synthetic.fhir.api.techbd.org/r4/observation/observationResponseQuestion-healthelinkS8KXK30S8W-efd3edf7a30bcb9a8ca91c244ddfc7c2-24",
      "resource": {
        "resourceType": "Observation",
        "id": "observationResponseQuestion-healthelinkS8KXK30S8W-efd3edf7a30bcb9a8ca91c244ddfc7c2-24",
        "meta": {
          "lastUpdated": "1979-09-18T19:25:23.479719+03:00",
          "profile": [
            "http://hl7.org/fhir/us/sdoh-clinicalcare/StructureDefinition/SDOHCC-ObservationScreeningResponse"
          ]
        },
        "status": "amended",
        "category": [
          {
            "coding": [
              {
                "system": "http://terminology.hl7.org/CodeSystem/observation-category",
                "code": "social-history",
                "display": "Social History"
              }
            ]
          },
          {
            "coding": [
              {
                "system": "http://terminology.hl7.org/CodeSystem/observation-category",
                "code": "survey",
                "display": "Survey"
              }
            ]
          },
          {
            "coding": [
              {
                "system": "http://hl7.org/fhir/us/sdoh-clinicalcare/CodeSystem/SDOHCC-CodeSystemTemporaryCodes",
                "code": "sdoh-category-unspecified",
                "display": "SDOH Category Unspecified"
              }
            ]
          }
        ],
        "code": {
          "coding": [
            {
              "system": "http://loinc.org",
              "code": "68524-8",
              "display": "How many times in the past year have you used illegal drugs?"
            }
          ]
        },
        "subject": {
          "reference": "Patient/CNYSCN-healthelink-20240327-testcase1-MRN"
        },
        "effectiveDateTime": "1979-09-18T19:25:23.479719+03:00",
        "issued": "1979-09-18T19:25:23.479719+03:00",
        "valueCodeableConcept": {
          "coding": [
            {
              "system": "http://loinc.org",
              "code": "LA18891-4",
              "display": "Weekly"
            }
          ]
        },
        "interpretation": [
          {
            "coding": [
              {
                "system": "http://terminology.hl7.org/CodeSystem/v3-ObservationInterpretation",
                "code": "POS",
                "display": "Positive"
              }
            ]
          }
        ]
      }
    },
    {
      "fullUrl": "https://synthetic.fhir.api.techbd.org/r4/observation/observationResponseQuestion-healthelinkS8KXK30S8W-efd3edf7a30bcb9a8ca91c244ddfc7c2-25",
      "resource": {
        "resourceType": "Observation",
        "id": "observationResponseQuestion-healthelinkS8KXK30S8W-efd3edf7a30bcb9a8ca91c244ddfc7c2-25",
        "meta": {
          "lastUpdated": "1979-09-18T19:25:23.479719+03:00",
          "profile": [
            "http://hl7.org/fhir/us/sdoh-clinicalcare/StructureDefinition/SDOHCC-ObservationScreeningResponse"
          ]
        },
        "status": "amended",
        "category": [
          {
            "coding": [
              {
                "system": "http://terminology.hl7.org/CodeSystem/observation-category",
                "code": "social-history",
                "display": "Social History"
              }
            ]
          },
          {
            "coding": [
              {
                "system": "http://terminology.hl7.org/CodeSystem/observation-category",
                "code": "survey",
                "display": "Survey"
              }
            ]
          },
          {
            "coding": [
              {
                "system": "http://hl7.org/fhir/us/sdoh-clinicalcare/CodeSystem/SDOHCC-CodeSystemTemporaryCodes",
                "code": "sdoh-category-unspecified",
                "display": "SDOH Category Unspecified"
              }
            ]
          }
        ],
        "code": {
          "coding": [
            {
              "system": "http://loinc.org",
              "code": "44250-9",
              "display": "Little interest or pleasure in doing things?"
            }
          ]
        },
        "subject": {
          "reference": "Patient/CNYSCN-healthelink-20240327-testcase1-MRN"
        },
        "effectiveDateTime": "1979-09-18T19:25:23.479719+03:00",
        "issued": "1979-09-18T19:25:23.479719+03:00",
        "valueCodeableConcept": {
          "coding": [
            {
              "system": "http://loinc.org",
              "code": "LA6568-5",
              "display": "Not at all"
            }
          ]
        },
        "interpretation": [
          {
            "coding": [
              {
                "system": "http://terminology.hl7.org/CodeSystem/v3-ObservationInterpretation",
                "code": "POS",
                "display": "Positive"
              }
            ]
          }
        ]
      }
    },
    {
      "fullUrl": "https://synthetic.fhir.api.techbd.org/r4/observation/observationResponseQuestion-healthelinkS8KXK30S8W-efd3edf7a30bcb9a8ca91c244ddfc7c2-26",
      "resource": {
        "resourceType": "Observation",
        "id": "observationResponseQuestion-healthelinkS8KXK30S8W-efd3edf7a30bcb9a8ca91c244ddfc7c2-26",
        "meta": {
          "lastUpdated": "1979-09-18T19:25:23.479719+03:00",
          "profile": [
            "http://hl7.org/fhir/us/sdoh-clinicalcare/StructureDefinition/SDOHCC-ObservationScreeningResponse"
          ]
        },
        "status": "amended",
        "category": [
          {
            "coding": [
              {
                "system": "http://terminology.hl7.org/CodeSystem/observation-category",
                "code": "social-history",
                "display": "Social History"
              }
            ]
          },
          {
            "coding": [
              {
                "system": "http://terminology.hl7.org/CodeSystem/observation-category",
                "code": "survey",
                "display": "Survey"
              }
            ]
          },
          {
            "coding": [
              {
                "system": "http://hl7.org/fhir/us/sdoh-clinicalcare/CodeSystem/SDOHCC-CodeSystemTemporaryCodes",
                "code": "sdoh-category-unspecified",
                "display": "SDOH Category Unspecified"
              }
            ]
          }
        ],
        "code": {
          "coding": [
            {
              "system": "http://loinc.org",
              "code": "44255-8",
              "display": "Feeling down, depressed, or hopeless?"
            }
          ]
        },
        "subject": {
          "reference": "Patient/CNYSCN-healthelink-20240327-testcase1-MRN"
        },
        "effectiveDateTime": "1979-09-18T19:25:23.479719+03:00",
        "issued": "1979-09-18T19:25:23.479719+03:00",
        "valueCodeableConcept": {
          "coding": [
            {
              "system": "http://loinc.org",
              "code": "LA6571-9",
              "display": "Nearly every day"
            }
          ]
        },
        "interpretation": [
          {
            "coding": [
              {
                "system": "http://terminology.hl7.org/CodeSystem/v3-ObservationInterpretation",
                "code": "POS",
                "display": "Positive"
              }
            ]
          }
        ]
      }
    },
    {
      "fullUrl": "https://synthetic.fhir.api.techbd.org/r4/observation/observationResponseQuestion-healthelinkS8KXK30S8W-efd3edf7a30bcb9a8ca91c244ddfc7c2-27",
      "resource": {
        "resourceType": "Observation",
        "id": "observationResponseQuestion-healthelinkS8KXK30S8W-efd3edf7a30bcb9a8ca91c244ddfc7c2-27",
        "meta": {
          "lastUpdated": "1979-09-18T19:25:23.479719+03:00",
          "profile": [
            "http://hl7.org/fhir/us/sdoh-clinicalcare/StructureDefinition/SDOHCC-ObservationScreeningResponse"
          ]
        },
        "status": "amended",
        "category": [
          {
            "coding": [
              {
                "system": "http://terminology.hl7.org/CodeSystem/observation-category",
                "code": "social-history",
                "display": "Social History"
              }
            ]
          },
          {
            "coding": [
              {
                "system": "http://terminology.hl7.org/CodeSystem/observation-category",
                "code": "survey",
                "display": "Survey"
              }
            ]
          },
          {
            "coding": [
              {
                "system": "http://hl7.org/fhir/us/sdoh-clinicalcare/CodeSystem/SDOHCC-CodeSystemTemporaryCodes",
                "code": "sdoh-category-unspecified",
                "display": "SDOH Category Unspecified"
              }
            ]
          }
        ],
        "code": {
          "coding": [
            {
              "display": "Calculated mental health score"
            }
          ]
        },
        "subject": {
          "reference": "Patient/CNYSCN-healthelink-20240327-testcase1-MRN"
        },
        "effectiveDateTime": "1979-09-18T19:25:23.479719+03:00",
        "issued": "1979-09-18T19:25:23.479719+03:00",
        "valueCodeableConcept": {
          "coding": [
            {
              "system": "http://unitsofmeasure.org",
              "code": "{score}",
              "display": "3"
            }
          ]
        },
        "derivedFrom": [
          {
            "reference": "Observation/observationResponseQuestion-healthelinkS8KXK30S8W-efd3edf7a30bcb9a8ca91c244ddfc7c2-26"
          },
          {
            "reference": "Observation/observationResponseQuestion-healthelinkS8KXK30S8W-efd3edf7a30bcb9a8ca91c244ddfc7c2-25"
          }
        ],
        "interpretation": [
          {
            "coding": [
              {
                "system": "http://terminology.hl7.org/CodeSystem/v3-ObservationInterpretation",
                "code": "POS",
                "display": "Positive"
              }
            ]
          }
        ]
      }
    },
    {
      "fullUrl": "https://synthetic.fhir.api.techbd.org/r4/observation/observationResponseQuestion-healthelinkS8KXK30S8W-efd3edf7a30bcb9a8ca91c244ddfc7c2-28",
      "resource": {
        "resourceType": "Observation",
        "id": "observationResponseQuestion-healthelinkS8KXK30S8W-efd3edf7a30bcb9a8ca91c244ddfc7c2-28",
        "meta": {
          "lastUpdated": "1979-09-18T19:25:23.479719+03:00",
          "profile": [
            "http://hl7.org/fhir/us/sdoh-clinicalcare/StructureDefinition/SDOHCC-ObservationScreeningResponse"
          ]
        },
        "status": "amended",
        "category": [
          {
            "coding": [
              {
                "system": "http://terminology.hl7.org/CodeSystem/observation-category",
                "code": "social-history",
                "display": "Social History"
              }
            ]
          },
          {
            "coding": [
              {
                "system": "http://terminology.hl7.org/CodeSystem/observation-category",
                "code": "survey",
                "display": "Survey"
              }
            ]
          },
          {
            "coding": [
              {
                "system": "http://hl7.org/fhir/us/sdoh-clinicalcare/CodeSystem/SDOHCC-CodeSystemTemporaryCodes",
                "code": "stress",
                "display": "Stress"
              }
            ]
          }
        ],
        "code": {
          "coding": [
            {
              "system": "http://loinc.org",
              "code": "93038-8",
              "display": "Stress means a situation in which a person feels tense, restless, nervous, or anxious, or is unable to sleep at night because his or her mind is troubled all the time. Do you feel this kind of stress these days?"
            }
          ]
        },
        "subject": {
          "reference": "Patient/CNYSCN-healthelink-20240327-testcase1-MRN"
        },
        "effectiveDateTime": "1979-09-18T19:25:23.479719+03:00",
        "issued": "1979-09-18T19:25:23.479719+03:00",
        "valueCodeableConcept": {
          "coding": [
            {
              "system": "http://loinc.org",
              "code": "LA13914-9",
              "display": "Very much"
            }
          ]
        },
        "interpretation": [
          {
            "coding": [
              {
                "system": "http://terminology.hl7.org/CodeSystem/v3-ObservationInterpretation",
                "code": "POS",
                "display": "Positive"
              }
            ]
          }
        ]
      }
    },
    {
      "fullUrl": "https://synthetic.fhir.api.techbd.org/r4/observation/observationResponseQuestion-healthelinkS8KXK30S8W-efd3edf7a30bcb9a8ca91c244ddfc7c2-29",
      "resource": {
        "resourceType": "Observation",
        "id": "observationResponseQuestion-healthelinkS8KXK30S8W-efd3edf7a30bcb9a8ca91c244ddfc7c2-29",
        "meta": {
          "lastUpdated": "1979-09-18T19:25:23.479719+03:00",
          "profile": [
            "http://hl7.org/fhir/us/sdoh-clinicalcare/StructureDefinition/SDOHCC-ObservationScreeningResponse"
          ]
        },
        "status": "amended",
        "category": [
          {
            "coding": [
              {
                "system": "http://terminology.hl7.org/CodeSystem/observation-category",
                "code": "social-history",
                "display": "Social History"
              }
            ]
          },
          {
            "coding": [
              {
                "system": "http://terminology.hl7.org/CodeSystem/observation-category",
                "code": "survey",
                "display": "Survey"
              }
            ]
          },
          {
            "coding": [
              {
                "system": "http://hl7.org/fhir/us/sdoh-clinicalcare/CodeSystem/SDOHCC-CodeSystemTemporaryCodes",
                "code": "sdoh-category-unspecified",
                "display": "SDOH Category Unspecified"
              }
            ]
          }
        ],
        "code": {
          "coding": [
            {
              "system": "http://loinc.org",
              "code": "69858-9",
              "display": "Because of a physical, mental, or emotional condition, do you have serious difficulty concentrating, remembering, or making decisions?"
            }
          ]
        },
        "subject": {
          "reference": "Patient/CNYSCN-healthelink-20240327-testcase1-MRN"
        },
        "effectiveDateTime": "1979-09-18T19:25:23.479719+03:00",
        "issued": "1979-09-18T19:25:23.479719+03:00",
        "valueCodeableConcept": {
          "coding": [
            {
              "system": "http://loinc.org",
              "code": "LA32-8",
              "display": "No"
            }
          ]
        },
        "interpretation": [
          {
            "coding": [
              {
                "system": "http://terminology.hl7.org/CodeSystem/v3-ObservationInterpretation",
                "code": "POS",
                "display": "Positive"
              }
            ]
          }
        ]
      }
    },
    {
      "fullUrl": "https://synthetic.fhir.api.techbd.org/r4/observation/observationResponseQuestion-healthelinkS8KXK30S8W-efd3edf7a30bcb9a8ca91c244ddfc7c2-30",
      "resource": {
        "resourceType": "Observation",
        "id": "observationResponseQuestion-healthelinkS8KXK30S8W-efd3edf7a30bcb9a8ca91c244ddfc7c2-30",
        "meta": {
          "lastUpdated": "1979-09-18T19:25:23.479719+03:00",
          "profile": [
            "http://hl7.org/fhir/us/sdoh-clinicalcare/StructureDefinition/SDOHCC-ObservationScreeningResponse"
          ]
        },
        "status": "amended",
        "category": [
          {
            "coding": [
              {
                "system": "http://terminology.hl7.org/CodeSystem/observation-category",
                "code": "social-history",
                "display": "Social History"
              }
            ]
          },
          {
            "coding": [
              {
                "system": "http://terminology.hl7.org/CodeSystem/observation-category",
                "code": "survey",
                "display": "Survey"
              }
            ]
          },
          {
            "coding": [
              {
                "system": "http://hl7.org/fhir/us/sdoh-clinicalcare/CodeSystem/SDOHCC-CodeSystemTemporaryCodes",
                "code": "sdoh-category-unspecified",
                "display": "SDOH Category Unspecified"
              }
            ]
          }
        ],
        "code": {
          "coding": [
            {
              "system": "http://loinc.org",
              "code": "69861-3",
              "display": "Because of a physical, mental, or emotional condition, do you have difficulty doing errands alone such as visiting a physician's office or shopping"
            }
          ]
        },
        "subject": {
          "reference": "Patient/CNYSCN-healthelink-20240327-testcase1-MRN"
        },
        "effectiveDateTime": "1979-09-18T19:25:23.479719+03:00",
        "issued": "1979-09-18T19:25:23.479719+03:00",
        "valueCodeableConcept": {
          "coding": [
            {
              "system": "http://loinc.org",
              "code": "LA32-8",
              "display": "No"
            }
          ]
        },
        "interpretation": [
          {
            "coding": [
              {
                "system": "http://terminology.hl7.org/CodeSystem/v3-ObservationInterpretation",
                "code": "POS",
                "display": "Positive"
              }
            ]
          }
        ]
      }
    },
    {
      "fullUrl": "https://synthetic.fhir.api.techbd.org/r4/observation/observationResponseQuestion-healthelinkS8KXK30S8W-efd3edf7a30bcb9a8ca91c244ddfc7c2-30-grouper",
      "resource": {
        "resourceType": "Observation",
        "id": "observationResponseQuestion-healthelinkS8KXK30S8W-efd3edf7a30bcb9a8ca91c244ddfc7c2-30-grouper",
        "meta": {
          "lastUpdated": "1979-09-18T19:25:23.479719+03:00",
          "profile": [
            "http://hl7.org/fhir/us/sdoh-clinicalcare/StructureDefinition/SDOHCC-ObservationScreeningResponse"
          ]
        },
        "status": "amended",
        "category": [
          {
            "coding": [
              {
                "system": "http://terminology.hl7.org/CodeSystem/observation-category",
                "code": "social-history",
                "display": "Social History"
              }
            ]
          },
          {
            "coding": [
              {
                "system": "http://terminology.hl7.org/CodeSystem/observation-category",
                "code": "survey",
                "display": "Survey"
              }
            ]
          },
          {
            "coding": [
              {
                "system": "http://hl7.org/fhir/us/sdoh-clinicalcare/CodeSystem/SDOHCC-CodeSystemTemporaryCodes",
                "display": "Social Connection",
                "code": "social-connection"
              },
              {
                "system": "http://hl7.org/fhir/us/sdoh-clinicalcare/CodeSystem/SDOHCC-CodeSystemTemporaryCodes",
                "display": "Financial Insecurity",
                "code": "financial-insecurity"
              },
              {
                "system": "http://hl7.org/fhir/us/sdoh-clinicalcare/CodeSystem/SDOHCC-CodeSystemTemporaryCodes",
                "display": "SDOH Category Unspecified",
                "code": "sdoh-category-unspecified"
              },
              {
                "system": "http://hl7.org/fhir/us/sdoh-clinicalcare/CodeSystem/SDOHCC-CodeSystemTemporaryCodes",
                "display": "Employment Status",
                "code": "employment-status"
              },
              {
                "system": "http://hl7.org/fhir/us/sdoh-clinicalcare/CodeSystem/SDOHCC-CodeSystemTemporaryCodes",
                "display": "Stress",
                "code": "stress"
              }
            ]
          }
        ],
        "code": {
          "coding": [
            {
              "system": "http://loinc.org",
              "code": "97023-6",
              "display": "Accountable health communities (AHC) health-related social needs (HRSN) supplemental questions"
            }
          ]
        },
        "subject": {
          "reference": "Patient/CNYSCN-healthelink-20240327-testcase1-MRN"
        },
        "encounter": {
          "reference": "Encounter/healthelinkS8KXK30S8W"
        },
        "effectiveDateTime": "1979-09-18T19:25:23.479719+03:00",
        "issued": "1979-09-18T19:25:23.479719+03:00",
        "hasMember": [
          {
            "reference": "Observation/observationResponseQuestion-healthelinkS8KXK30S8W-efd3edf7a30bcb9a8ca91c244ddfc7c2-12"
          },
          {
            "reference": "Observation/observationResponseQuestion-healthelinkS8KXK30S8W-efd3edf7a30bcb9a8ca91c244ddfc7c2-13"
          },
          {
            "reference": "Observation/observationResponseQuestion-healthelinkS8KXK30S8W-efd3edf7a30bcb9a8ca91c244ddfc7c2-14"
          },
          {
            "reference": "Observation/observationResponseQuestion-healthelinkS8KXK30S8W-efd3edf7a30bcb9a8ca91c244ddfc7c2-15"
          },
          {
            "reference": "Observation/observationResponseQuestion-healthelinkS8KXK30S8W-efd3edf7a30bcb9a8ca91c244ddfc7c2-16"
          },
          {
            "reference": "Observation/observationResponseQuestion-healthelinkS8KXK30S8W-efd3edf7a30bcb9a8ca91c244ddfc7c2-17"
          },
          {
            "reference": "Observation/observationResponseQuestion-healthelinkS8KXK30S8W-efd3edf7a30bcb9a8ca91c244ddfc7c2-18"
          },
          {
            "reference": "Observation/observationResponseQuestion-healthelinkS8KXK30S8W-efd3edf7a30bcb9a8ca91c244ddfc7c2-19"
          },
          {
            "reference": "Observation/observationResponseQuestion-healthelinkS8KXK30S8W-efd3edf7a30bcb9a8ca91c244ddfc7c2-20"
          },
          {
            "reference": "Observation/observationResponseQuestion-healthelinkS8KXK30S8W-efd3edf7a30bcb9a8ca91c244ddfc7c2-21"
          },
          {
            "reference": "Observation/observationResponseQuestion-healthelinkS8KXK30S8W-efd3edf7a30bcb9a8ca91c244ddfc7c2-22"
          },
          {
            "reference": "Observation/observationResponseQuestion-healthelinkS8KXK30S8W-efd3edf7a30bcb9a8ca91c244ddfc7c2-23"
          },
          {
            "reference": "Observation/observationResponseQuestion-healthelinkS8KXK30S8W-efd3edf7a30bcb9a8ca91c244ddfc7c2-24"
          },
          {
            "reference": "Observation/observationResponseQuestion-healthelinkS8KXK30S8W-efd3edf7a30bcb9a8ca91c244ddfc7c2-25"
          },
          {
            "reference": "Observation/observationResponseQuestion-healthelinkS8KXK30S8W-efd3edf7a30bcb9a8ca91c244ddfc7c2-26"
          },
          {
            "reference": "Observation/observationResponseQuestion-healthelinkS8KXK30S8W-efd3edf7a30bcb9a8ca91c244ddfc7c2-27"
          },
          {
            "reference": "Observation/observationResponseQuestion-healthelinkS8KXK30S8W-efd3edf7a30bcb9a8ca91c244ddfc7c2-28"
          },
          {
            "reference": "Observation/observationResponseQuestion-healthelinkS8KXK30S8W-efd3edf7a30bcb9a8ca91c244ddfc7c2-29"
          },
          {
            "reference": "Observation/observationResponseQuestion-healthelinkS8KXK30S8W-efd3edf7a30bcb9a8ca91c244ddfc7c2-30"
          }
        ]
      }
    },
    {
      "fullUrl": "https://synthetic.fhir.api.techbd.org/r4/Patient/CNYSCN-healthelink-20240327-testcase1-MRN",
      "resource": {
        "resourceType": "Patient",
        "id": "CNYSCN-healthelink-20240327-testcase1-MRN",
        "meta": {
          "lastUpdated": "1999-03-18T20:20:51.539131-03:00",
          "profile": [
            "http://shinny.org/StructureDefinition/shinny-patient"
          ]
        },
        "language": "en",
        "extension": [
          {
            "extension": [
              {
                "url": "ombCategory",
                "valueCoding": {
                  "system": "urn:oid:2.16.840.1.113883.6.238",
                  "code": "1019-9",
                  "display": "White Mountain Apache"
                }
              }
            ],
            "url": "http://hl7.org/fhir/us/core/StructureDefinition/us-core-race"
          },
          {
            "extension": [
              {
                "url": "ombCategory",
                "valueCoding": {
                  "system": "urn:oid:2.16.840.1.113883.6.238",
                  "code": "2137-8",
                  "display": "Spaniard"
                }
              }
            ],
            "url": "http://hl7.org/fhir/us/core/StructureDefinition/us-core-ethnicity"
          },
          {
            "url": "http://hl7.org/fhir/us/core/StructureDefinition/us-core-birthsex",
            "valueCode": "M"
          },
          {
            "url": "http://shinny.org/StructureDefinition/shinny-sexual-orientation",
            "valueCodeableConcept": {
              "coding": [
                {
                  "system": "http://snomed.info/sct",
                  "code": "42035005",
                  "display": "Bisexual"
                }
              ]
            }
          }
        ],
        "identifier": [
          {
            "type": {
              "coding": [
                {
                  "system": "http://terminology.hl7.org/CodeSystem/v2-0203",
                  "code": "MR"
                }
              ],
              "text": "Medical Record Number"
            },
            "system": "https://synthetic.fhir.api.techbd.org/facility/CNYSCN",
            "value": "healthelink-20240327-testcase1-MRN",
            "assigner": {
              "reference": "Organization/CNYSCN"
            }
          },
          {
            "type": {
              "coding": [
                {
                  "system": "http://terminology.hl7.org/CodeSystem/v2-0203",
                  "code": "MA"
                }
              ]
            },
            "system": "http://www.medicaid.gov/",
            "value": "MK72165H",
            "assigner": {
              "reference": "Organization/2.16.840.1.113883.3.249"
            }
          },
          {
            "type": {
              "coding": [
                {
                  "system": "http://terminology.hl7.org/CodeSystem/v2-0203",
                  "code": "PN"
                }
              ]
            },
            "system": "http://www.acme.com/identifiers/patient",
            "value": "MPIData"
          }
        ],
        "name": [
          {
            "text": "Anthony Todd Johnson",
            "family": "Johnson",
            "given": [
              "Anthony",
              "Todd"
            ]
          }
        ],
        "gender": "male",
        "birthDate": "2019-09-19",
        "address": [
          {
            "text": "7207 Murray Fort ",
            "line": [
              "7207 Murray Fort"
            ],
            "city": "New Rochelle",
            "state": "NY",
            "postalCode": "10801"
          }
        ],
        "communication": [
          {
            "language": {
              "coding": [
                {
                  "code": "kon"
                }
              ]
            },
            "preferred": true
          }
        ]
      }
    },
    {
      "fullUrl": "https://synthetic.fhir.api.techbd.org/r4/encounter/healthelinkS8KXK30S8W",
      "resource": {
        "resourceType": "Encounter",
        "id": "healthelinkS8KXK30S8W",
        "meta": {
          "lastUpdated": "1979-09-18T19:25:23.479719+03:00",
          "profile": [
            "http://shinny.org/StructureDefinition/shin-ny-encounter"
          ]
        },
        "status": "entered-in-error",
        "class": {
          "system": "http://terminology.hl7.org/CodeSystem/v3-ActCode",
          "code": "IMP"
        },
        "type": [
          {
            "coding": [
              {
                "system": "http://snomed.info/sct",
                "code": "23918007",
                "display": "History taking, self-administered, by computer terminal"
              }
            ],
            "text": "History taking, self-administered, by computer terminal"
          }
        ],
        "subject": {
          "reference": "Patient/CNYSCN-healthelink-20240327-testcase1-MRN"
        }
      }
    }
  ]
}